<accelx> 41 -11533 6334 -3500 -10831 -14276 11478 -642 -3038 -5536 5705 -1855 -6719 -13173 9961 491 2995 11942 4827 5436 2391 14604 3902 153 292 12382 -12579 -11284 -10282 -10105 5447 -8274 14771 11538 1869 -10088 -4333 -3701 -12965 9894 -1297 -6189 1322 333 -12327 4664 -14859 7711 -1747 6868 -4453 -2356 2662 2757 -9963 12859 8723 9741 -2471 778 12316 3035 -7810 1842 288 106 9040 8942 -10736 -7352 -2554 -6195 -14110 6729 -5630 -14650 -14994 1101 -5607 3548 -10371 12623 -5916 -10046 -11244 11840 4966 7376 13931 -3692 -13056 2439 -5374 11323 5537 -8462 -13882 2082 -7071 -13459 4833 1115 4639 -342 -7296 9930 13977 2306 1673 -7614 5021 -1255 -3076 -10928 6270 5829 -3223 -14427 5097 -13488 -6014 13290 9161 -11364 -7645 -5233 -6345 -14426 4031 12052 -2650 1150 -13059 -8276 13966 3430 1107 191 -11993 11337 -14543 12287 -2247 10383 14945 8909 2209 9758 -5779 -11412 6422 -5054 -2494 13030 -13587 -832 900 2591 -11238 1655 -12590 6359 -2376 -9463 -8452 6483 -2405 4041 3602 -5650 10291 836 9374 11020 4596 -5979 -2652 -6801 -10332 -5516 8281 4734 53 1999 -3582 -2062 6900 3788 -11873 467 3728 14893 -5352 -7517 -12193 2421 14310 6617 -7187 9514 14309 7616 -11065 -12549 -9400 5249 -13481 1556 -7202 303 6224 11008 5844 2609 14989 2702 3195 -9515 3093 14343 523 1587 -686 9503 7448 -4800 13458 6618 -9420 -10204 14798 -14719 -10411 -9202 -1991 -2843 -9528 -6378 -11462 12292 6038 -5821 -11810 -343 7958 6191 -10185 -7112 -10844 11511 -13798 2634 -5728 -9945 -9672  </accelx>
<accely> -9959 18467 6334 26500 19169 15724 11478 29358 26962 24464 5705 28145 23281 16827 9961 -9509 2995 11942 4827 5436 32391 14604 3902 -9847 -9708 12382 17421 18716 19718 19895 5447 21726 14771 11538 1869 19912 25667 26299 17035 9894 28703 23811 31322 30333 17673 4664 15141 7711 28253 6868 25547 27644 32662 32757 20037 12859 8723 9741 27529 778 12316 3035 22190 1842 -9712 30106 9040 8942 19264 22648 27446 23805 15890 6729 24370 15350 15006 31101 24393 3548 19629 12623 24084 19954 18756 11840 4966 7376 13931 26308 16944 32439 24626 11323 5537 21538 16118 2082 22929 16541 4833 31115 4639 29658 22704 9930 13977 2306 31673 22386 5021 28745 26924 19072 6270 5829 26777 15573 5097 16512 23986 13290 9161 18636 22355 24767 23655 15574 4031 12052 27350 1150 16941 21724 13966 3430 31107 30191 18007 11337 15457 12287 27753 10383 14945 8909 32209 9758 24221 18588 6422 24946 27506 13030 16413 29168 900 32591 18762 1655 17410 6359 27624 20537 21548 6483 27595 4041 3602 24350 10291 30836 9374 11020 4596 24021 27348 23199 19668 24484 8281 4734 -9947 1999 26418 27938 6900 3788 18127 -9533 3728 14893 24648 22483 17807 2421 14310 6617 22813 9514 14309 7616 18935 17451 20600 5249 16519 31556 22798 30303 6224 11008 5844 32609 14989 32702 3195 20485 3093 14343 30523 1587 29314 9503 7448 25200 13458 6618 20580 19796 14798 15281 19589 20798 28009 27157 20472 23622 18538 12292 6038 24179 18190 29657 7958 6191 19815 22888 19156 11511 16202 2634 24272 20055 2032 </accely>
<accelz> 141 18467 6334 26500 19169 15724 11478 29358 26962 24464 5705 28145 23281 16827 9961 591 2995 11942 4827 5436 32391 14604 3902 253 392 12382 17421 18716 19718 19895 5447 21726 14771 11538 1869 19912 25667 26299 17035 9894 28703 23811 31322 30333 17673 4664 15141 7711 28253 6868 25547 27644 32662 32757 20037 12859 8723 9741 27529 878 12316 3035 22190 1842 388 30106 9040 8942 19264 22648 27446 23805 15890 6729 24370 15350 15006 31101 24393 3548 19629 12623 24084 19954 18756 11840 4966 7376 13931 26308 16944 32439 24626 11323 5537 21538 16118 2082 22929 16541 4833 31115 4639 29658 22704 9930 13977 2306 31673 22386 5021 28745 26924 19072 6270 5829 26777 15573 5097 16512 23986 13290 9161 18636 22355 24767 23655 15574 4031 12052 27350 1150 16941 21724 13966 3430 31107 30191 18007 11337 15457 12287 27753 10383 14945 8909 32209 9758 24221 18588 6422 24946 27506 13030 16413 29168 1000 32591 18762 1655 17410 6359 27624 20537 21548 6483 27595 4041 3602 24350 10291 30836 9374 11020 4596 24021 27348 23199 19668 24484 8281 4734 153 1999 26418 27938 6900 3788 18127 567 3728 14893 24648 22483 17807 2421 14310 6617 22813 9514 14309 7616 18935 17451 20600 5249 16519 31556 22798 30303 6224 11008 5844 32609 14989 32702 3195 20485 3093 14343 30523 1587 29314 9503 7448 25200 13458 6618 20580 19796 14798 15281 19589 20798 28009 27157 20472 23622 18538 12292 6038 24179 18190 29657 7958 6191 19815 22888 19156 11511 16202 2634 24272 20055 20328 </accelz>
<roll> 41 67 34 0 69 24 78 58 62 64 5 45 81 27 61 91 95 42 27 36 91 4 2 53 92 82 21 16 18 95 47 26 71 38 69 12 67 99 35 94 3 11 22 33 73 64 41 11 53 68 47 44 62 57 37 59 23 41 29 78 16 35 90 42 88 6 40 42 64 48 46 5 90 29 70 50 15006 1 93 48 29 23 84 54 56 40 66 76 31 8 44 39 26 23 37 38 18 82 29 41 33 15 39 58 4 30 77 6 73 86 21 45 24 72 70 29 77 73 97 12 86 90 61 36 55 67 55 74 31 52 50 50 41 24 66 30 7 91 18007 37 57 87 53 83 45 9 9 58 21 88 22 46 6 30 13 68 0 91 62 55 10 59 24 37 48 83 95 41 2 50 91 36 74 20 96 21 48 99 68 84 81 34 53 99 18 38 0 88 27 67 28 93 48 83 7 21 10 17 13 14 9 16 35 51 0 49 19 56 98 3 24 11008 44 9 89 2 95 85 93 43 23 87 14 3 48 0 58 18 80 96 98 81 89 98 9 57 72 22 38 92 38 79 90 57 58 91 15 88 56 11 2 34 72 55 28 </roll>
<pitch> 41 67 34 26500 69 24 78 58 62 64 5705 45 81 27 61 91 95 42 27 36 91 14604 3902 53 92 82 21 16 18 95 47 26 71 38 69 12 67 99 35 94 28703 11 22 33 73 64 41 11 53 68 47 44 62 57 37 59 23 41 29 78 16 35 90 42 88 30106 40 42 64 48 46 23805 90 29 70 50 15006 31101 93 48 29 23 84 54 56 40 66 76 31 26308 44 39 26 23 37 38 18 82 29 41 33 15 39 58 22704 30 77 2306 73 86 21 45 24 72 70 29 77 73 97 12 86 90 61 36 55 67 55 74 31 52 50 50 41 24 66 30 31107 91 18007 37 57 87 53 83 45 9 9 58 21 88 22 46 27506 30 13 68 900 91 62 55 10 59 24 37 48 83 95 41 3602 50 91 36 74 20 96 21 48 99 68 84 81 34 53 99 18 38 6900 88 27 67 28 93 48 83 17807 21 10 17 13 14 9 16 35 51 20600 49 19 56 98 30303 24 11008 44 9 89 32702 95 85 93 43 23 87 14 9503 48 25200 58 18 80 96 98 81 89 98 9 57 72 22 38 92 38 79 90 57 58 91 15 88 56 11 16202 34 72 55 28 </pitch>
<yaw> 1 67 34 0 69 24 78 58 62 24464 5 45 81 27 61 91 2995 42 27 36 32391 4 2 53 92 82 21 16 19718 19895 47 26 71 38 69 12 67 99 35 94 3 11 22 33 73 4664 15141 11 28253 6868 47 44 62 57 37 59 23 41 29 78 16 35 90 42 88 6 40 42 64 48 46 5 90 29 70 50 6 1 93 48 19629 23 84 54 56 40 66 76 31 8 44 39 26 23 37 38 18 82 29 41 33 15 39 29658 22704 30 77 6 73 86 5021 45 24 72 70 29 77 73 97 12 86 13290 61 36 22355 67 55 74 31 52 50 1150 41 24 66 30 7 30191 7 37 57 87 53 83 45 9 32209 58 21 88 22 46 6 13030 13 68 0 91 62 55 10 59 24 37 48 83 95 41 2 50 91 36 74 20 96 21 48 99 68 84 81 34 53 99 18 38 0 3788 27 67 28 93 24648 83 7 21 10 17 13 14 9 16 35 51 20600 49 19 56 22798 3 24 11008 44 9 89 2 95 85 93 43 23 1587 14 3 48 0 58 18 80 96 98 81 89 98 9 57 72 22 38 92 38 79 90 29657 58 91 15 22888 56 11 2 34 72 55 20328 </yaw>
<vectorx> 41 18467 6334 26500 1 15724 11478 29358 26962 24464 5705 28145 23281 16827 9961 491 2995 11942 4827 5436 32391 14604 3902 153 292 12382 17421 18716 19718 19895 5447 21726 14771 11538 13 19912 25667 11 17035 9894 28703 23811 31322 30333 17673 4664 15141 7711 28253 6868 25547 27644 32662 32757 20037 11 8723 9741 9 778 12316 3035 22190 1842 288 30106 9040 8942 19264 22648 27446 23805 15890 9 24370 15350 15006 31101 24393 3548 13 12623 24084 19954 18756 11840 4966 7376 13931 26308 16944 7 24626 11323 5537 21538 16118 2082 1 16541 4833 31115 15 29658 22704 9930 13977 2306 31673 22386 5021 28745 26924 19072 6270 5 26777 15573 5097 16512 23986 13290 9161 18636 22355 24767 23655 15574 4031 12052 27350 1150 16941 21724 13966 3430 31107 30191 18007 11337 15457 12287 27753 10383 14945 13 1 9758 24221 18588 6422 24946 27506 13030 16413 29168 900 32591 18762 1655 17410 7 27624 20537 21548 6483 27595 4041 3602 24350 10291 30836 9374 11020 4596 24021 27348 15 19668 24484 8281 4734 53 15 26418 27938 6900 3788 18127 467 3728 14893 24648 22483 17807 2421 14310 6617 22813 9514 5 7616 18935 17451 20600 1 7 31556 22798 30303 6224 11008 5844 1 13 32702 3195 20485 3093 14343 30523 1587 29314 9503 7448 25200 13458 6618 20580 19796 14798 15281 5 20798 9 27157 20472 23622 18538 12292 6038 3 18190 29657 7958 6191 19815 22888 19156 11511 16202 2634 24272 20055 20 </vectorx>
<vectory> 1757 20183 8050 28216 20885 17440 13194 31074 28678 26180 7421 29861 24997 18543 11677 2207 4711 13658 6543 7152 34107 16320 5618 1869 2008 14098 19137 20432 21434 21611 7163 23442 16487 13254 3585 21628 27383 28015 18751 11610 30419 25527 33038 32049 19389 6380 16857 9427 29969 8584 27263 29360 34378 34473 21753 14575 10439 11457 29245 2494 14032 4751 23906 3558 2004 31822 10756 10658 20980 24364 29162 25521 17606 8445 26086 17066 16722 32817 26109 5264 21345 14339 25800 21670 20472 13556 6682 9092 15647 28024 18660 34155 26342 13039 7253 23254 17834 3798 24645 18257 6549 32831 6355 31374 24420 11646 15693 4022 33389 24102 6737 30461 28640 20788 7986 7545 28493 17289 6813 18228 25702 15006 10877 20352 24071 26483 25371 17290 5747 13768 29066 2866 18657 23440 15682 5146 32823 31907 19723 13053 17173 14003 29469 12099 16661 10625 33925 11474 25937 20304 8138 26662 29222 14746 18129 30884 2616 34307 20478 3371 19126 8075 29340 22253 23264 8199 29311 5757 5318 26066 12007 32552 11090 12736 6312 25737 29064 24915 21384 26200 9997 6450 1769 3715 28134 29654 8616 5504 19843 2183 5444 16609 26364 24199 19523 4137 16026 8333 24529 11230 16025 9332 20651 19167 22316 6965 18235 33272 24514 32019 7940 12724 7560 34325 16705 34418 4911 22201 4809 16059 32239 3303 31030 11219 9164 26916 15174 8334 22296 21512 16514 16997 21305 22514 29725 28873 22188 25338 20254 14008 7754 25895 19906 31373 9674 7907 21531 24604 20872 13227 17918 4350 25988 21771 22044 </vectory>
<vectorz> 97 19323 7190 27356 20025 16580 12334 30214 27818 25320 6561 29001 24137 17683 10817 1347 3851 12798 5683 6292 33247 15460 4758 1009 1148 13238 18277 19572 20574 20751 6303 22582 15627 12394 2725 20768 26523 27155 17891 10750 29559 24667 32178 31189 18529 5520 15997 8567 29109 7724 26403 28500 33518 33613 20893 13715 9579 10597 28385 1634 13172 3891 23046 2698 1144 30962 9896 9798 20120 23504 28302 24661 16746 7585 25226 16206 15862 31957 25249 4404 20485 13479 24940 20810 19612 12696 5822 8232 14787 27164 17800 33295 25482 12179 6393 22394 16974 2938 23785 17397 5689 31971 5495 30514 23560 10786 14833 3162 32529 23242 5877 29601 27780 19928 7126 6685 27633 16429 5953 17368 24842 14146 10017 19492 23211 25623 24511 16430 4887 12908 28206 2006 17797 22580 14822 4286 31963 31047 18863 12193 16313 13143 28609 11239 15801 9765 33065 10614 25077 19444 7278 25802 28362 13886 17269 30024 1756 33447 19618 2511 18266 7215 28480 21393 22404 7339 28451 4897 4458 25206 11147 31692 10230 11876 5452 24877 28204 24055 20524 25340 9137 5590 909 2855 27274 28794 7756 4644 18983 1323 4584 15749 25504 23339 18663 3277 15166 7473 23669 10370 15165 8472 19791 18307 21456 6105 17375 32412 23654 31159 7080 11864 6700 33465 15845 33558 4051 21341 3949 15199 31379 2443 30170 10359 8304 26056 14314 7474 21436 20652 15654 16137 20445 21654 28865 28013 21328 24478 19394 13148 6894 25035 19046 30513 8814 7047 20671 23744 20012 12367 17058 3490 25128 20911 2 </vectorz>
<temp> 1 -533 -666 -900 169 -876 -322 -442 -438 -536 -95 -455 -519 -973 -639 491 -405 142 -973 -364 191 -796 -698 153 292 -618 -379 -284 -482 -305 -353 -874 -629 -262 -331 -288 -533 99 -765 -706 103 11 -878 -667 -127 64 -259 -489 -347 -132 -653 -956 -738 -643 -163 -141 -677 -859 129 778 -684 -365 -410 -358 288 -894 -360 -458 -936 48 46 5 -710 -271 -630 -50 -394 101 -607 148 -571 -377 -916 -246 -244 40 -834 -824 -269 108 -856 -961 -374 -477 -263 138 -482 -118 -871 -59 -967 115 39 -142 104 -670 -223 106 -527 -214 -779 145 -476 72 -730 29 -623 173 -703 -88 186 -910 -239 -364 -245 -233 -145 174 -569 -948 -50 1150 -859 -876 -234 30 107 -809 -993 -463 57 -713 -847 -217 -455 -491 9 -842 -779 -412 -578 -54 106 30 -187 -632 900 -809 -238 -545 -390 -641 -976 -863 148 -517 195 -559 -998 -650 -309 -164 -26 -780 -4 -979 -52 -601 -532 -516 81 134 53 -201 -982 -662 -100 -812 -873 467 -872 -507 -352 -117 7 -979 110 -383 -987 114 109 -584 -65 -349 -800 -551 -81 -644 198 -697 -776 -792 44 -791 -411 -698 -205 -915 -307 143 -477 -613 -486 103 -752 -1000 -742 -382 -820 -404 -602 -119 -611 -602 -591 -243 -928 -178 -462 -708 -962 -821 -810 -143 -242 -809 -385 -912 156 -289 -398 -766 -728 -145 128 </temp>
<zerog> 41 467 334 100 1169 124 678 558 562 464 905 545 481 27 361 491 595 1142 27 636 1191 204 302 153 292 382 621 716 518 695 647 126 371 738 669 712 467 1099 235 294 1103 1011 122 333 873 1064 741 511 653 868 347 44 262 357 837 859 323 141 1129 778 316 635 590 642 288 106 640 542 64 1048 1046 1005 290 729 370 950 606 1101 393 1148 429 623 84 754 756 1040 166 176 731 1108 144 39 626 523 737 1138 518 882 129 941 33 1115 1039 858 1104 330 777 1106 473 786 221 1145 524 1072 270 1029 377 1173 297 912 1186 90 761 636 755 767 855 1174 431 52 950 1150 141 124 766 1030 1107 191 7 537 1057 287 153 783 545 509 1009 158 221 588 422 946 1106 1030 813 368 900 191 762 455 610 359 24 137 1148 483 1195 441 2 350 691 836 974 220 996 21 948 399 468 484 1081 1134 53 799 18 338 900 188 127 467 128 493 648 883 1007 21 1110 617 13 1114 1109 416 935 651 200 449 919 356 1198 303 224 208 1044 209 589 302 795 85 693 1143 523 387 514 1103 248 0 258 618 180 596 398 881 389 398 409 757 72 822 538 292 38 179 190 857 758 191 615 88 1156 711 602 234 272 855 1 </zerog>
<dirangle> 41 107 214 220 89 244 318 198 322 344 305 65 241 267 241 131 115 62 147 36 351 204 302 153 292 142 141 356 278 95 47 126 11 18 69 112 107 19 115 174 263 51 2 93 33 344 21 151 173 28 347 284 262 357 237 259 83 21 169 58 76 155 230 42 288 226 40 302 184 328 86 45 50 249 250 230 246 141 273 308 189 23 324 154 36 320 286 176 251 28 24 39 146 163 137 298 278 282 249 341 153 155 319 138 24 210 297 146 353 66 341 305 284 352 150 69 137 93 57 312 226 330 161 276 35 287 255 94 71 172 350 70 21 124 286 190 147 311 7 177 337 47 33 303 185 269 169 38 101 228 302 106 146 70 213 8 180 191 42 215 130 239 264 17 308 3 235 81 2 230 211 236 14 220 276 261 348 159 228 4 1 54 53 199 138 218 60 188 127 107 128 133 168 163 167 261 270 137 133 154 269 56 215 171 80 209 319 236 118 63 104 208 84 209 229 302 315 325 213 303 283 147 154 143 248 0 138 138 60 356 38 161 149 278 289 157 312 222 178 52 278 59 190 137 38 71 15 208 76 351 2 114 152 255 168 </dirangle>
<pressure> 129 18555 6422 26588 19257 15812 11566 29446 27050 24552 5793 28233 23369 16915 10049 579 3083 12030 4915 5524 32479 14692 3990 241 380 12470 17509 18804 19806 19983 5535 21814 14859 11626 1957 20000 25755 26387 17123 9982 28791 23899 31410 30421 17761 4752 15229 7799 28341 6956 25635 27732 32750 32845 20125 12947 8811 9829 27617 866 12404 3123 22278 1930 376 30194 9128 9030 19352 22736 27534 23893 15978 6817 24458 15438 15094 31189 24481 3636 19717 12711 24172 20042 18844 11928 5054 7464 14019 26396 17032 32527 24714 11411 5625 21626 16206 2170 23017 16629 4921 31203 4727 29746 22792 10018 14065 2394 31761 22474 5109 28833 27012 19160 6358 5917 26865 15661 5185 16600 24074 13378 9249 18724 22443 24855 23743 15662 4119 12140 27438 1238 17029 21812 14054 3518 31195 30279 18095 11425 15545 12375 27841 10471 15033 8997 32297 9846 24309 18676 6510 25034 27594 13118 16501 29256 988 32679 18850 1743 17498 6447 27712 20625 21636 6571 27683 4129 3690 24438 10379 30924 9462 11108 4684 24109 27436 23287 19756 24572 8369 4822 141 2087 26506 28026 6988 3876 18215 555 3816 14981 24736 22571 17895 2509 14398 6705 22901 9602 14397 7704 19023 17539 20688 5337 16607 31644 22886 30391 6312 11096 5932 32697 15077 32790 3283 20573 3181 14431 30611 1675 29402 9591 7536 25288 13546 6706 20668 19884 14886 15369 19677 20886 28097 27245 20560 23710 18626 12380 6126 24267 18278 29745 8046 6279 19903 22976 19244 11599 16290 2722 24360 20143 20416 </pressure>